File: raw_data/test_cv.txt
June 22, 2021   15:50:38
Cyclic Voltammetry
File: c:\users\susan odom\desktop\hussein\2021-06-22\csv files\13- scan rate both waves - 25 mv-s
Data Source:  Experiment
Instrument Model:  CHI650Ref. Electrode:
Header:
Note:

Init E (V) = 0
High E (V) = 1.6
Low E (V) = 0
Init P/N = P
Scan Rate (V/s) = 0.025
Segment = 2
Sample Interval (V) = 0.001
Quiet Time (sec) = 2
Sensitivity (A/V) = 1e-4
Comp R (ohm) = 1317.2

Segment 1:
Segment 2:
Ep = 1.360V
Eh = 1.433V
ip = 4.020e-6A
Ah = 1.186e-5C

Potential/V, Current/A

0.000, -9.843e-8
0.003, -8.133e-8
0.006, -7.229e-8
0.009, -6.453e-8
0.012, -5.933e-8
0.015, -5.412e-8
0.018, -4.862e-8
0.021, -4.390e-8
0.024, -4.046e-8
0.027, -3.683e-8
0.030, -3.299e-8
0.033, -3.044e-8
0.036, -2.769e-8
0.039, -2.386e-8
0.042, -2.081e-8
0.045, -1.894e-8
0.048, -1.639e-8
0.051, -1.472e-8
0.054, -1.226e-8
0.057, -9.511e-9
0.060, -7.349e-9
0.063, -5.974e-9
0.066, -4.107e-9
0.069, -2.535e-9
0.072, -1.356e-9
0.075, 1.179e-10
0.078, 1.100e-9
0.081, 3.459e-9
0.084, 4.441e-9
0.087, 7.094e-9
0.090, 7.683e-9
0.093, 8.568e-9
0.096, 9.845e-9
0.099, 1.073e-8
0.102, 1.289e-8
0.105, 1.348e-8
0.108, 1.525e-8
0.111, 1.594e-8
0.114, 1.692e-8
0.117, 1.780e-8
0.120, 1.849e-8
0.123, 1.918e-8
0.126, 2.095e-8
0.129, 2.183e-8
0.132, 2.321e-8
0.135, 2.350e-8
0.138, 2.448e-8
0.141, 2.576e-8
0.144, 2.655e-8
0.147, 2.704e-8
0.150, 2.832e-8
0.153, 2.861e-8
0.156, 2.959e-8
0.159, 3.077e-8
0.162, 3.107e-8
0.165, 3.185e-8
0.168, 3.293e-8
0.171, 3.352e-8
0.174, 3.451e-8
0.177, 3.510e-8
0.180, 3.598e-8
0.183, 3.588e-8
0.186, 3.785e-8
0.189, 3.912e-8
0.192, 3.932e-8
0.195, 3.962e-8
0.198, 4.060e-8
0.201, 4.168e-8
0.204, 4.276e-8
0.207, 4.266e-8
0.210, 4.482e-8
0.213, 4.472e-8
0.216, 4.581e-8
0.219, 4.630e-8
0.222, 4.630e-8
0.225, 4.757e-8
0.228, 4.816e-8
0.231, 4.993e-8
0.234, 5.052e-8
0.237, 5.091e-8
0.240, 5.131e-8
0.243, 5.249e-8
0.246, 5.337e-8
0.249, 5.406e-8
0.252, 5.357e-8
0.255, 5.484e-8
0.258, 5.701e-8
0.261, 5.642e-8
0.264, 5.701e-8
0.267, 5.769e-8
0.270, 5.976e-8
0.273, 6.025e-8
0.276, 6.074e-8
0.279, 6.133e-8
0.282, 6.261e-8
0.285, 6.398e-8
0.288, 6.388e-8
0.291, 6.457e-8
0.294, 6.555e-8
0.297, 6.595e-8
0.300, 6.781e-8
0.303, 6.860e-8
0.306, 6.909e-8
0.309, 6.998e-8
0.312, 7.125e-8
0.315, 7.283e-8
0.318, 7.322e-8
0.321, 7.391e-8
0.324, 7.518e-8
0.327, 7.617e-8
0.330, 7.813e-8
0.333, 7.862e-8
0.336, 7.931e-8
0.339, 8.010e-8
0.342, 8.186e-8
0.345, 8.353e-8
0.348, 8.363e-8
0.351, 8.520e-8
0.354, 8.589e-8
0.357, 8.786e-8
0.360, 8.923e-8
0.363, 8.972e-8
0.366, 9.100e-8
0.369, 9.238e-8
0.372, 9.424e-8
0.375, 9.621e-8
0.378, 9.817e-8
0.381, 9.965e-8
0.384, 1.012e-7
0.387, 1.024e-7
0.390, 1.050e-7
0.393, 1.064e-7
0.396, 1.084e-7
0.399, 1.114e-7
0.402, 1.137e-7
0.405, 1.164e-7
0.408, 1.192e-7
0.411, 1.223e-7
0.414, 1.248e-7
0.417, 1.286e-7
0.420, 1.322e-7
0.423, 1.367e-7
0.426, 1.401e-7
0.429, 1.455e-7
0.432, 1.493e-7
0.435, 1.549e-7
0.438, 1.608e-7
0.441, 1.672e-7
0.444, 1.747e-7
0.447, 1.806e-7
0.450, 1.900e-7
0.453, 1.977e-7
0.456, 2.063e-7
0.459, 2.169e-7
0.462, 2.279e-7
0.465, 2.382e-7
0.468, 2.511e-7
0.471, 2.648e-7
0.474, 2.789e-7
0.477, 2.935e-7
0.480, 3.089e-7
0.483, 3.258e-7
0.486, 3.444e-7
0.489, 3.632e-7
0.492, 3.834e-7
0.495, 4.032e-7
0.498, 4.233e-7
0.501, 4.441e-7
0.504, 4.651e-7
0.507, 4.875e-7
0.510, 5.081e-7
0.513, 5.297e-7
0.516, 5.504e-7
0.519, 5.714e-7
0.522, 5.922e-7
0.525, 6.137e-7
0.528, 6.329e-7
0.531, 6.538e-7
0.534, 6.741e-7
0.537, 6.953e-7
0.540, 7.159e-7
0.543, 7.381e-7
0.546, 7.605e-7
0.549, 7.859e-7
0.552, 8.087e-7
0.555, 8.365e-7
0.558, 8.668e-7
0.561, 9.001e-7
0.564, 9.375e-7
0.567, 9.787e-7
0.570, 1.026e-6
0.573, 1.080e-6
0.576, 1.139e-6
0.579, 1.208e-6
0.582, 1.283e-6
0.585, 1.371e-6
0.588, 1.467e-6
0.591, 1.573e-6
0.594, 1.696e-6
0.597, 1.832e-6
0.600, 1.985e-6
0.603, 2.157e-6
0.606, 2.351e-6
0.609, 2.565e-6
0.612, 2.807e-6
0.615, 3.075e-6
0.618, 3.368e-6
0.621, 3.694e-6
0.624, 4.057e-6
0.627, 4.464e-6
0.630, 4.911e-6
0.633, 5.406e-6
0.636, 5.947e-6
0.639, 6.547e-6
0.642, 7.206e-6
0.645, 7.921e-6
0.648, 8.698e-6
0.651, 9.554e-6
0.654, 1.047e-5
0.657, 1.148e-5
0.660, 1.257e-5
0.663, 1.373e-5
0.666, 1.501e-5
0.669, 1.636e-5
0.672, 1.780e-5
0.675, 1.934e-5
0.678, 2.096e-5
0.681, 2.267e-5
0.684, 2.447e-5
0.687, 2.636e-5
0.690, 2.835e-5
0.693, 3.040e-5
0.696, 3.253e-5
0.699, 3.471e-5
0.702, 3.698e-5
0.705, 3.929e-5
0.708, 4.162e-5
0.711, 4.397e-5
0.714, 4.633e-5
0.717, 4.875e-5
0.720, 5.110e-5
0.723, 5.346e-5
0.726, 5.580e-5
0.729, 5.810e-5
0.732, 6.033e-5
0.735, 6.249e-5
0.738, 6.457e-5
0.741, 6.652e-5
0.744, 6.838e-5
0.747, 7.013e-5
0.750, 7.174e-5
0.753, 7.322e-5
0.756, 7.454e-5
0.759, 7.569e-5
0.762, 7.671e-5
0.765, 7.756e-5
0.768, 7.827e-5
0.771, 7.880e-5
0.774, 7.917e-5
0.777, 7.939e-5
0.780, 7.947e-5
0.783, 7.941e-5
0.786, 7.920e-5
0.789, 7.887e-5
0.792, 7.842e-5
0.795, 7.786e-5
0.798, 7.719e-5
0.801, 7.643e-5
0.804, 7.559e-5
0.807, 7.467e-5
0.810, 7.369e-5
0.813, 7.265e-5
0.816, 7.158e-5
0.819, 7.052e-5
0.822, 6.939e-5
0.825, 6.827e-5
0.828, 6.717e-5
0.831, 6.609e-5
0.834, 6.503e-5
0.837, 6.401e-5
0.840, 6.303e-5
0.843, 6.210e-5
0.846, 6.120e-5
0.849, 6.036e-5
0.852, 5.959e-5
0.855, 5.886e-5
0.858, 5.819e-5
0.861, 5.756e-5
0.864, 5.700e-5
0.867, 5.651e-5
0.870, 5.608e-5
0.873, 5.571e-5
0.876, 5.540e-5
0.879, 5.516e-5
0.882, 5.498e-5
0.885, 5.488e-5
0.888, 5.485e-5
0.891, 5.490e-5
0.894, 5.503e-5
0.897, 5.524e-5
0.900, 5.554e-5
0.903, 5.593e-5
0.906, 5.640e-5
0.909, 5.697e-5
0.912, 5.764e-5
0.915, 5.841e-5
0.918, 5.928e-5
0.921, 6.026e-5
0.924, 6.133e-5
0.927, 6.250e-5
0.930, 6.376e-5
0.933, 6.512e-5
0.936, 6.656e-5
0.939, 6.811e-5
0.942, 6.974e-5
0.945, 7.146e-5
0.948, 7.325e-5
0.951, 7.507e-5
0.954, 7.695e-5
0.957, 7.886e-5
0.960, 8.081e-5
0.963, 8.277e-5
0.966, 8.475e-5
0.969, 8.672e-5
0.972, 8.865e-5
0.975, 9.058e-5
0.978, 9.245e-5
0.981, 9.427e-5
0.984, 9.601e-5
0.987, 9.767e-5
0.990, 9.924e-5
0.993, 1.007e-4
0.996, 1.021e-4
0.999, 1.034e-4
1.002, 1.045e-4
1.005, 1.055e-4
1.008, 1.064e-4
1.011, 1.071e-4
1.014, 1.078e-4
1.017, 1.083e-4
1.020, 1.086e-4
1.023, 1.088e-4
1.026, 1.090e-4
1.029, 1.089e-4
1.032, 1.088e-4
1.035, 1.085e-4
1.038, 1.082e-4
1.041, 1.077e-4
1.044, 1.071e-4
1.047, 1.065e-4
1.050, 1.057e-4
1.053, 1.049e-4
1.056, 1.040e-4
1.059, 1.031e-4
1.062, 1.021e-4
1.065, 1.010e-4
1.068, 9.994e-5
1.071, 9.884e-5
1.074, 9.772e-5
1.077, 9.660e-5
1.080, 9.547e-5
1.083, 9.436e-5
1.086, 9.326e-5
1.089, 9.218e-5
1.092, 9.113e-5
1.095, 9.012e-5
1.098, 8.913e-5
1.101, 8.818e-5
1.104, 8.726e-5
1.107, 8.638e-5
1.110, 8.554e-5
1.113, 8.472e-5
1.116, 8.395e-5
1.119, 8.320e-5
1.122, 8.249e-5
1.125, 8.180e-5
1.128, 8.115e-5
1.131, 8.053e-5
1.134, 7.992e-5
1.137, 7.935e-5
1.140, 7.879e-5
1.143, 7.827e-5
1.146, 7.776e-5
1.149, 7.726e-5
1.152, 7.679e-5
1.155, 7.634e-5
1.158, 7.591e-5
1.161, 7.550e-5
1.164, 7.510e-5
1.167, 7.471e-5
1.170, 7.434e-5
1.173, 7.399e-5
1.176, 7.364e-5
1.179, 7.331e-5
1.182, 7.299e-5
1.185, 7.269e-5
1.188, 7.240e-5
1.191, 7.212e-5
1.194, 7.185e-5
1.197, 7.159e-5
1.200, 7.134e-5
1.203, 7.110e-5
1.206, 7.087e-5
1.209, 7.064e-5
1.212, 7.043e-5
1.215, 7.022e-5
1.218, 7.002e-5
1.221, 6.983e-5
1.224, 6.964e-5
1.227, 6.947e-5
1.230, 6.929e-5
1.233, 6.913e-5
1.236, 6.897e-5
1.239, 6.883e-5
1.242, 6.868e-5
1.245, 6.855e-5
1.248, 6.842e-5
1.251, 6.830e-5
1.254, 6.819e-5
1.257, 6.807e-5
1.260, 6.797e-5
1.263, 6.788e-5
1.266, 6.779e-5
1.269, 6.771e-5
1.272, 6.764e-5
1.275, 6.757e-5
1.278, 6.750e-5
1.281, 6.745e-5
1.284, 6.740e-5
1.287, 6.735e-5
1.290, 6.732e-5
1.293, 6.728e-5
1.296, 6.726e-5
1.299, 6.723e-5
1.302, 6.722e-5
1.305, 6.721e-5
1.308, 6.721e-5
1.311, 6.721e-5
1.314, 6.721e-5
1.317, 6.722e-5
1.320, 6.724e-5
1.323, 6.726e-5
1.326, 6.728e-5
1.329, 6.731e-5
1.332, 6.734e-5
1.335, 6.738e-5
1.338, 6.742e-5
1.341, 6.747e-5
1.344, 6.751e-5
1.347, 6.756e-5
1.350, 6.762e-5
1.353, 6.767e-5
1.356, 6.773e-5
1.359, 6.779e-5
1.362, 6.785e-5
1.365, 6.792e-5
1.368, 6.798e-5
1.371, 6.805e-5
1.374, 6.811e-5
1.377, 6.818e-5
1.380, 6.826e-5
1.383, 6.833e-5
1.386, 6.839e-5
1.389, 6.847e-5
1.392, 6.854e-5
1.395, 6.861e-5
1.398, 6.868e-5
1.401, 6.876e-5
1.404, 6.883e-5
1.407, 6.890e-5
1.410, 6.897e-5
1.413, 6.905e-5
1.416, 6.912e-5
1.419, 6.919e-5
1.422, 6.926e-5
1.425, 6.933e-5
1.428, 6.940e-5
1.431, 6.947e-5
1.434, 6.954e-5
1.437, 6.961e-5
1.440, 6.968e-5
1.443, 6.974e-5
1.446, 6.981e-5
1.449, 6.987e-5
1.452, 6.993e-5
1.455, 6.999e-5
1.458, 7.004e-5
1.461, 7.010e-5
1.464, 7.015e-5
1.467, 7.021e-5
1.470, 7.025e-5
1.473, 7.030e-5
1.476, 7.035e-5
1.479, 7.040e-5
1.482, 7.044e-5
1.485, 7.048e-5
1.488, 7.051e-5
1.491, 7.055e-5
1.494, 7.058e-5
1.497, 7.061e-5
1.500, 7.064e-5
1.503, 7.067e-5
1.506, 7.069e-5
1.509, 7.072e-5
1.512, 7.073e-5
1.515, 7.075e-5
1.518, 7.077e-5
1.521, 7.078e-5
1.524, 7.079e-5
1.527, 7.080e-5
1.530, 7.080e-5
1.533, 7.081e-5
1.536, 7.081e-5
1.539, 7.081e-5
1.542, 7.081e-5
1.545, 7.081e-5
1.548, 7.081e-5
1.551, 7.080e-5
1.554, 7.079e-5
1.557, 7.078e-5
1.560, 7.076e-5
1.563, 7.075e-5
1.566, 7.073e-5
1.569, 7.071e-5
1.572, 7.069e-5
1.575, 7.067e-5
1.578, 7.065e-5
1.581, 7.063e-5
1.584, 7.060e-5
1.587, 7.057e-5
1.590, 7.055e-5
1.593, 7.052e-5
1.596, 7.050e-5
1.599, 7.047e-5
1.598, 7.014e-5
1.595, 7.001e-5
1.592, 6.991e-5
1.589, 6.981e-5
1.586, 6.972e-5
1.583, 6.964e-5
1.580, 6.956e-5
1.577, 6.949e-5
1.574, 6.942e-5
1.571, 6.936e-5
1.568, 6.929e-5
1.565, 6.923e-5
1.562, 6.918e-5
1.559, 6.913e-5
1.556, 6.908e-5
1.553, 6.903e-5
1.550, 6.899e-5
1.547, 6.895e-5
1.544, 6.891e-5
1.541, 6.888e-5
1.538, 6.884e-5
1.535, 6.882e-5
1.532, 6.879e-5
1.529, 6.877e-5
1.526, 6.874e-5
1.523, 6.873e-5
1.520, 6.872e-5
1.517, 6.871e-5
1.514, 6.870e-5
1.511, 6.870e-5
1.508, 6.870e-5
1.505, 6.871e-5
1.502, 6.872e-5
1.499, 6.874e-5
1.496, 6.877e-5
1.493, 6.880e-5
1.490, 6.883e-5
1.487, 6.887e-5
1.484, 6.892e-5
1.481, 6.898e-5
1.478, 6.904e-5
1.475, 6.911e-5
1.472, 6.918e-5
1.469, 6.926e-5
1.466, 6.936e-5
1.463, 6.946e-5
1.460, 6.956e-5
1.457, 6.967e-5
1.454, 6.979e-5
1.451, 6.992e-5
1.448, 7.004e-5
1.445, 7.018e-5
1.442, 7.031e-5
1.439, 7.045e-5
1.436, 7.059e-5
1.433, 7.073e-5
1.430, 7.086e-5
1.427, 7.101e-5
1.424, 7.114e-5
1.421, 7.128e-5
1.418, 7.141e-5
1.415, 7.154e-5
1.412, 7.166e-5
1.409, 7.178e-5
1.406, 7.189e-5
1.403, 7.201e-5
1.400, 7.210e-5
1.397, 7.220e-5
1.394, 7.229e-5
1.391, 7.237e-5
1.388, 7.244e-5
1.385, 7.250e-5
1.382, 7.256e-5
1.379, 7.261e-5
1.376, 7.265e-5
1.373, 7.269e-5
1.370, 7.272e-5
1.367, 7.274e-5
1.364, 7.274e-5
1.361, 7.275e-5
1.358, 7.274e-5
1.355, 7.273e-5
1.352, 7.271e-5
1.349, 7.269e-5
1.346, 7.266e-5
1.343, 7.262e-5
1.340, 7.257e-5
1.337, 7.252e-5
1.334, 7.247e-5
1.331, 7.241e-5
1.328, 7.235e-5
1.325, 7.228e-5
1.322, 7.221e-5
1.319, 7.214e-5
1.316, 7.206e-5
1.313, 7.198e-5
1.310, 7.190e-5
1.307, 7.181e-5
1.304, 7.173e-5
1.301, 7.164e-5
1.298, 7.155e-5
1.295, 7.146e-5
1.292, 7.137e-5
1.289, 7.127e-5
1.286, 7.118e-5
1.283, 7.108e-5
1.280, 7.099e-5
1.277, 7.089e-5
1.274, 7.079e-5
1.271, 7.069e-5
1.268, 7.059e-5
1.265, 7.049e-5
1.262, 7.039e-5
1.259, 7.029e-5
1.256, 7.019e-5
1.253, 7.010e-5
1.250, 6.999e-5
1.247, 6.990e-5
1.244, 6.980e-5
1.241, 6.970e-5
1.238, 6.961e-5
1.235, 6.952e-5
1.232, 6.942e-5
1.229, 6.932e-5
1.226, 6.924e-5
1.223, 6.915e-5
1.220, 6.906e-5
1.217, 6.898e-5
1.214, 6.889e-5
1.211, 6.881e-5
1.208, 6.874e-5
1.205, 6.866e-5
1.202, 6.859e-5
1.199, 6.852e-5
1.196, 6.846e-5
1.193, 6.840e-5
1.190, 6.834e-5
1.187, 6.829e-5
1.184, 6.824e-5
1.181, 6.820e-5
1.178, 6.816e-5
1.175, 6.813e-5
1.172, 6.810e-5
1.169, 6.809e-5
1.166, 6.807e-5
1.163, 6.807e-5
1.160, 6.806e-5
1.157, 6.806e-5
1.154, 6.807e-5
1.151, 6.808e-5
1.148, 6.809e-5
1.145, 6.811e-5
1.142, 6.813e-5
1.139, 6.815e-5
1.136, 6.816e-5
1.133, 6.818e-5
1.130, 6.820e-5
1.127, 6.821e-5
1.124, 6.821e-5
1.121, 6.822e-5
1.118, 6.821e-5
1.115, 6.820e-5
1.112, 6.818e-5
1.109, 6.814e-5
1.106, 6.809e-5
1.103, 6.803e-5
1.100, 6.795e-5
1.097, 6.785e-5
1.094, 6.773e-5
1.091, 6.759e-5
1.088, 6.742e-5
1.085, 6.721e-5
1.082, 6.697e-5
1.079, 6.668e-5
1.076, 6.635e-5
1.073, 6.598e-5
1.070, 6.558e-5
1.067, 6.510e-5
1.064, 6.456e-5
1.061, 6.397e-5
1.058, 6.331e-5
1.055, 6.257e-5
1.052, 6.176e-5
1.049, 6.087e-5
1.046, 5.990e-5
1.043, 5.886e-5
1.040, 5.772e-5
1.037, 5.650e-5
1.034, 5.518e-5
1.031, 5.378e-5
1.028, 5.227e-5
1.025, 5.070e-5
1.022, 4.900e-5
1.019, 4.725e-5
1.016, 4.539e-5
1.013, 4.346e-5
1.010, 4.142e-5
1.007, 3.934e-5
1.004, 3.717e-5
1.001, 3.496e-5
0.998, 3.270e-5
0.995, 3.039e-5
0.992, 2.804e-5
0.989, 2.566e-5
0.986, 2.328e-5
0.983, 2.087e-5
0.980, 1.850e-5
0.977, 1.616e-5
0.974, 1.385e-5
0.971, 1.156e-5
0.968, 9.356e-6
0.965, 7.204e-6
0.962, 5.159e-6
0.959, 3.222e-6
0.956, 1.411e-6
0.953, -2.726e-7
0.950, -1.819e-6
0.947, -3.248e-6
0.944, -4.529e-6
0.941, -5.687e-6
0.938, -6.650e-6
0.935, -7.467e-6
0.932, -8.124e-6
0.929, -8.616e-6
0.926, -8.929e-6
0.923, -9.083e-6
0.920, -9.129e-6
0.917, -8.977e-6
0.914, -8.697e-6
0.911, -8.293e-6
0.908, -7.753e-6
0.905, -7.099e-6
0.902, -6.343e-6
0.899, -5.499e-6
0.896, -4.595e-6
0.893, -3.618e-6
0.890, -2.606e-6
0.887, -1.563e-6
0.884, -4.856e-7
0.881, 5.831e-7
0.878, 1.652e-6
0.875, 2.712e-6
0.872, 3.744e-6
0.869, 4.738e-6
0.866, 5.704e-6
0.863, 6.635e-6
0.860, 7.523e-6
0.857, 8.363e-6
0.854, 9.144e-6
0.851, 9.881e-6
0.848, 1.056e-5
0.845, 1.119e-5
0.842, 1.176e-5
0.839, 1.228e-5
0.836, 1.273e-5
0.833, 1.312e-5
0.830, 1.346e-5
0.827, 1.373e-5
0.824, 1.393e-5
0.821, 1.407e-5
0.818, 1.411e-5
0.815, 1.411e-5
0.812, 1.402e-5
0.809, 1.385e-5
0.806, 1.360e-5
0.803, 1.326e-5
0.800, 1.283e-5
0.797, 1.231e-5
0.794, 1.168e-5
0.791, 1.095e-5
0.788, 1.012e-5
0.785, 9.190e-6
0.782, 8.160e-6
0.779, 7.013e-6
0.776, 5.749e-6
0.773, 4.373e-6
0.770, 2.902e-6
0.767, 1.303e-6
0.764, -3.765e-7
0.761, -2.184e-6
0.758, -4.055e-6
0.755, -6.027e-6
0.752, -8.103e-6
0.749, -1.026e-5
0.746, -1.249e-5
0.743, -1.480e-5
0.740, -1.717e-5
0.737, -1.952e-5
0.734, -2.191e-5
0.731, -2.427e-5
0.728, -2.658e-5
0.725, -2.885e-5
0.722, -3.109e-5
0.719, -3.323e-5
0.716, -3.530e-5
0.713, -3.731e-5
0.710, -3.926e-5
0.707, -4.109e-5
0.704, -4.294e-5
0.701, -4.469e-5
0.698, -4.615e-5
0.695, -4.745e-5
0.692, -4.849e-5
0.689, -4.941e-5
0.686, -5.019e-5
0.683, -5.083e-5
0.680, -5.131e-5
0.677, -5.164e-5
0.674, -5.182e-5
0.671, -5.184e-5
0.668, -5.171e-5
0.665, -5.145e-5
0.662, -5.103e-5
0.659, -5.051e-5
0.656, -4.986e-5
0.653, -4.911e-5
0.650, -4.826e-5
0.647, -4.732e-5
0.644, -4.631e-5
0.641, -4.524e-5
0.638, -4.412e-5
0.635, -4.294e-5
0.632, -4.175e-5
0.629, -4.053e-5
0.626, -3.932e-5
0.623, -3.811e-5
0.620, -3.692e-5
0.617, -3.574e-5
0.614, -3.460e-5
0.611, -3.349e-5
0.608, -3.241e-5
0.605, -3.137e-5
0.602, -3.039e-5
0.599, -2.944e-5
0.596, -2.853e-5
0.593, -2.767e-5
0.590, -2.684e-5
0.587, -2.605e-5
0.584, -2.529e-5
0.581, -2.457e-5
0.578, -2.388e-5
0.575, -2.322e-5
0.572, -2.259e-5
0.569, -2.200e-5
0.566, -2.142e-5
0.563, -2.088e-5
0.560, -2.034e-5
0.557, -1.984e-5
0.554, -1.936e-5
0.551, -1.890e-5
0.548, -1.847e-5
0.545, -1.804e-5
0.542, -1.764e-5
0.539, -1.724e-5
0.536, -1.687e-5
0.533, -1.651e-5
0.530, -1.616e-5
0.527, -1.582e-5
0.524, -1.550e-5
0.521, -1.519e-5
0.518, -1.489e-5
0.515, -1.460e-5
0.512, -1.432e-5
0.509, -1.404e-5
0.506, -1.377e-5
0.503, -1.351e-5
0.500, -1.326e-5
0.497, -1.301e-5
0.494, -1.277e-5
0.491, -1.253e-5
0.488, -1.230e-5
0.485, -1.208e-5
0.482, -1.186e-5
0.479, -1.164e-5
0.476, -1.143e-5
0.473, -1.123e-5
0.470, -1.102e-5
0.467, -1.082e-5
0.464, -1.063e-5
0.461, -1.045e-5
0.458, -1.026e-5
0.455, -1.008e-5
0.452, -9.903e-6
0.449, -9.731e-6
0.446, -9.562e-6
0.443, -9.397e-6
0.440, -9.238e-6
0.437, -9.078e-6
0.434, -8.924e-6
0.431, -8.773e-6
0.428, -8.628e-6
0.425, -8.487e-6
0.422, -8.345e-6
0.419, -8.212e-6
0.416, -8.079e-6
0.413, -7.949e-6
0.410, -7.824e-6
0.407, -7.698e-6
0.404, -7.579e-6
0.401, -7.461e-6
0.398, -7.346e-6
0.395, -7.232e-6
0.392, -7.121e-6
0.389, -7.016e-6
0.386, -6.913e-6
0.383, -6.811e-6
0.380, -6.711e-6
0.377, -6.614e-6
0.374, -6.515e-6
0.371, -6.420e-6
0.368, -6.329e-6
0.365, -6.238e-6
0.362, -6.149e-6
0.359, -6.064e-6
0.356, -5.977e-6
0.353, -5.892e-6
0.350, -5.814e-6
0.347, -5.736e-6
0.344, -5.656e-6
0.341, -5.579e-6
0.338, -5.504e-6
0.335, -5.429e-6
0.332, -5.359e-6
0.329, -5.286e-6
0.326, -5.214e-6
0.323, -5.144e-6
0.320, -5.078e-6
0.317, -5.011e-6
0.314, -4.945e-6
0.311, -4.879e-6
0.308, -4.817e-6
0.305, -4.756e-6
0.302, -4.694e-6
0.299, -4.634e-6
0.296, -4.577e-6
0.293, -4.522e-6
0.290, -4.465e-6
0.287, -4.410e-6
0.284, -4.356e-6
0.281, -4.302e-6
0.278, -4.247e-6
0.275, -4.194e-6
0.272, -4.145e-6
0.269, -4.095e-6
0.266, -4.043e-6
0.263, -3.995e-6
0.260, -3.949e-6
0.257, -3.901e-6
0.254, -3.854e-6
0.251, -3.807e-6
0.248, -3.761e-6
0.245, -3.717e-6
0.242, -3.676e-6
0.239, -3.631e-6
0.236, -3.588e-6
0.233, -3.547e-6
0.230, -3.504e-6
0.227, -3.464e-6
0.224, -3.425e-6
0.221, -3.386e-6
0.218, -3.347e-6
0.215, -3.308e-6
0.212, -3.269e-6
0.209, -3.231e-6
0.206, -3.193e-6
0.203, -3.157e-6
0.200, -3.122e-6
0.197, -3.087e-6
0.194, -3.051e-6
0.191, -3.016e-6
0.188, -2.984e-6
0.185, -2.951e-6
0.182, -2.919e-6
0.179, -2.887e-6
0.176, -2.854e-6
0.173, -2.821e-6
0.170, -2.787e-6
0.167, -2.756e-6
0.164, -2.726e-6
0.161, -2.697e-6
0.158, -2.666e-6
0.155, -2.636e-6
0.152, -2.605e-6
0.149, -2.576e-6
0.146, -2.547e-6
0.143, -2.517e-6
0.140, -2.489e-6
0.137, -2.461e-6
0.134, -2.434e-6
0.131, -2.407e-6
0.128, -2.378e-6
0.125, -2.350e-6
0.122, -2.324e-6
0.119, -2.298e-6
0.116, -2.271e-6
0.113, -2.245e-6
0.110, -2.219e-6
0.107, -2.195e-6
0.104, -2.170e-6
0.101, -2.146e-6
0.098, -2.121e-6
0.095, -2.096e-6
0.092, -2.073e-6
0.089, -2.048e-6
0.086, -2.025e-6
0.083, -2.001e-6
0.080, -1.978e-6
0.077, -1.955e-6
0.074, -1.932e-6
0.071, -1.909e-6
0.068, -1.888e-6
0.065, -1.866e-6
0.062, -1.845e-6
0.059, -1.824e-6
0.056, -1.802e-6
0.053, -1.780e-6
0.050, -1.759e-6
0.047, -1.738e-6
0.044, -1.718e-6
0.041, -1.698e-6
0.038, -1.679e-6
0.035, -1.658e-6
0.032, -1.637e-6
0.029, -1.617e-6
0.026, -1.599e-6
0.023, -1.580e-6
0.020, -1.561e-6
0.017, -1.543e-6
0.014, -1.525e-6
0.011, -1.506e-6
0.008, -1.488e-6
0.005, -1.472e-6
0.002, -1.454e-6
0.001, -1.448e-6